{
    "resourceType": "Bundle",
    "meta":{
        "profile":["http://jpfhir.jp/fhir/eDischargeSummary/StructureDefinition/JP_Bundle_eDischargeSummary"]
    },
    "type": "document",
    "timestamp":"2021-09-18T13:28:17.239+09:00",
    "entry": [
        {
            "fullUrl":"urn:uuid:9143bb41-1bef-4558-9d65-5be842fc76b0",
            "resource":{
                "resourceType":"Composition",
                "meta":{
                    "profile":["http://jpfhir.jp/fhir/eDischargeSummary/StructureDefinition/JP_Composition_eDischargeSummary"]
                },
                "extension":[
                    {
                    "url":"http://hl7.org/fhir/StructureDefinition/composition-clinicaldocumentversionNumber",
                    "valueString":"1.0"
                    }
                ],
                "identifier":{
                    "system":"http://jpfhir.jp/fhir/Common/CodeSystem/resourceInstanceidentifier",
                    "value":"1311234567-2020-00123456"
                },
                "status":"final",
                "type":{
                    "coding":[
                        {
                        "system":"http://jpfhir.jp/fhir/Common/CodeSystem/doc-typecodes",
                        "code":"18842-5",
                        "display":"退院時サマリー"
                        }
                    ]
                },
                "category":[
                    {
                        "coding":[
                            {
                            "system":"http://jpfhir.jp/fhir/eClinicalSummary/CodeSystem/eClinicalSummary-category",
                            "code":"18842-5",
                            "display":"退院時サマリー"
                            }
                        ]
                    }
                ],
                "subject":{
                    "reference":"urn:uuid:058fa764-c95f-42ec-bd42-fce1882de842"
                },
                "encounter":{
                    "reference":"urn:uuid:435e678d-3f14-451c-9a4e-5c04aa96a657"
                },
                "date":"2020-09-18T12:28:21+09:00",
                "author":[
                    {
                        "reference":"urn:uuid:f14602df-cb5a-496d-a632-7bc013107330"
                    },
                    {
                        "reference":"urn:uuid:f3da8f9b-cc98-4a7f-88bb-62906eb74322"
                    }
                ],
                "title":"退院時サマリー",
                "custodian":{
                    "reference":"urn:uuid:f3da8f9b-cc98-4a7f-88bb-62906eb74322"
                },
                "section":[
                    {
                        "title":"構造情報",
                        "code":{
                            "coding":[
                                {
                                "system":"http://jpfhir.jp/fhir/eClinicalSummary/CodeSystem/document-section",
                                "code":"300",
                                "display":"構造情報"
                                }
                            ]
                        },
                        "text":{
                            "status":"additional",
                            "div":"<div xmlns=\"http://www.w3.org/1999/xhtml\">\n\n              <table>\n\n                <thead>\n\n                  <tr>\n\n                    <td>Medication</td>\n\n                    <td>Last Change</td>\n\n                    <td>Last ChangeReason</td>\n\n                  </tr>\n\n                </thead>\n\n                <tbody>\n\n                  <tr>\n\n                    <td>Theophylline 200mg BD after meals</td>\n\n                    <td>continued</td>\n\n                  </tr>\n\n                  <tr>\n\n                    <td>Ventolin Inhaler</td>\n\n                    <td>stopped</td>\n\n                    <td>Getting side effect of tremor</td>\n\n                  </tr>\n\n                </tbody>\n\n              </table>\n\n            </div>"
                        },
                        "emptyReason":{
                            "coding":[
                                {
                                "system":"http://terminology.hl7.org/CodeSystem/list-emptyreason",
                                "code":"unavilable"
                                }
                            ]
                        },
                        "section":[
                            {
                                "title":"入院詳細",
                                "code":{
                                    "coding":[
                                        {
                                        "system":"http://jpfhir.jp/fhir/eClinicalSummary/CodeSystem/document-section",
                                        "code":"322",
                                        "display":"入院詳細"
                                        }
                                    ]
                                },
                                "text":{
                                    "status":"additional",
                                    "div":"<div xmlns=\"http://www.w3.org/1999/xhtml\">\n\n              <table>\n\n                <thead>\n\n                  <tr>\n\n                    <td>Medication</td>\n\n                    <td>Last Change</td>\n\n                    <td>Last ChangeReason</td>\n\n                  </tr>\n\n                </thead>\n\n                <tbody>\n\n                  <tr>\n\n                    <td>Theophylline 200mg BD after meals</td>\n\n                    <td>continued</td>\n\n                  </tr>\n\n                  <tr>\n\n                    <td>Ventolin Inhaler</td>\n\n                    <td>stopped</td>\n\n                    <td>Getting side effect of tremor</td>\n\n                  </tr>\n\n                </tbody>\n\n              </table>\n\n            </div>"
                                },
                                "entry":[
                                    {
                                        "reference": "urn:uuid:435e678d-3f14-451c-9a4e-5c04aa96a657"
                                    }
                                ]
                            },
                            {
                                "title":"入院時診断",
                                "code":{
                                    "coding":[
                                        {
                                        "system":"http://jpfhir.jp/fhir/eClinicalSummary/CodeSystem/document-section",
                                        "code":"342",
                                        "display":"入院時診断"
                                        }
                                    ]
                                },
                                "text":{
                                    "status":"additional",
                                    "div":"<div xmlns=\"http://www.w3.org/1999/xhtml\">\n\n              <table>\n\n                <thead>\n\n                  <tr>\n\n                    <td>Medication</td>\n\n                    <td>Last Change</td>\n\n                    <td>Last ChangeReason</td>\n\n                  </tr>\n\n                </thead>\n\n                <tbody>\n\n                  <tr>\n\n                    <td>Theophylline 200mg BD after meals</td>\n\n                    <td>continued</td>\n\n                  </tr>\n\n                  <tr>\n\n                    <td>Ventolin Inhaler</td>\n\n                    <td>stopped</td>\n\n                    <td>Getting side effect of tremor</td>\n\n                  </tr>\n\n                </tbody>\n\n              </table>\n\n            </div>"
                                },
                                "entry":[
                                    {
                                        "reference": "urn:uuid:d9f9406f-a5c4-49ed-9783-da4f5eb7170f"
                                    }
                                ]
                            },
                            {
                                "title":"アレルギー・不耐性反応",
                                "code":{
                                    "coding":[
                                        {
                                        "system":"http://jpfhir.jp/fhir/eClinicalSummary/CodeSystem/document-section",
                                        "code":"510",
                                        "display":"アレルギー・不耐性反応"
                                        }
                                    ]
                                },
                                "text":{
                                    "status":"additional",
                                    "div":"<div xmlns=\"http://www.w3.org/1999/xhtml\">\n\n              <table>\n\n                <thead>\n\n                  <tr>\n\n                    <td>Medication</td>\n\n                    <td>Last Change</td>\n\n                    <td>Last ChangeReason</td>\n\n                  </tr>\n\n                </thead>\n\n                <tbody>\n\n                  <tr>\n\n                    <td>Theophylline 200mg BD after meals</td>\n\n                    <td>continued</td>\n\n                  </tr>\n\n                  <tr>\n\n                    <td>Ventolin Inhaler</td>\n\n                    <td>stopped</td>\n\n                    <td>Getting side effect of tremor</td>\n\n                  </tr>\n\n                </tbody>\n\n              </table>\n\n            </div>"
                                },
                                "entry":[
                                    {
                                        "reference": "urn:uuid:1b31a34f-50c6-4197-b85d-0e4e6569c27"
                                    }
                                ]
                            },
                            {
                                "title":"入院時主訴",
                                "code":{
                                    "coding":[
                                        {
                                        "system":"http://jpfhir.jp/fhir/eClinicalSummary/CodeSystem/document-section",
                                        "code":"352",
                                        "display":"入院時主訴"
                                        }
                                    ]
                                },
                                "text":{
                                    "status":"additional",
                                    "div":"<div xmlns=\"http://www.w3.org/1999/xhtml\">\n\n              <table>\n\n                <thead>\n\n                  <tr>\n\n                    <td>Medication</td>\n\n                    <td>Last Change</td>\n\n                    <td>Last ChangeReason</td>\n\n                  </tr>\n\n                </thead>\n\n                <tbody>\n\n                  <tr>\n\n                    <td>Theophylline 200mg BD after meals</td>\n\n                    <td>continued</td>\n\n                  </tr>\n\n                  <tr>\n\n                    <td>Ventolin Inhaler</td>\n\n                    <td>stopped</td>\n\n                    <td>Getting side effect of tremor</td>\n\n                  </tr>\n\n                </tbody>\n\n              </table>\n\n            </div>"
                                },
                                "entry":[
                                    {
                                        "reference": "urn:uuid:d9f9406f-a5c4-49ed-9783-da4f5eb7170f"
                                    }
                                ]
                            },
                            {
                                "title":"入院理由",
                                "code":{
                                    "coding":[
                                        {
                                        "system":"http://jpfhir.jp/fhir/eClinicalSummary/CodeSystem/document-section",
                                        "code":"312",
                                        "display":"入院理由"
                                        }
                                    ]
                                },
                                "text":{
                                    "status":"additional",
                                    "div":"<div xmlns=\"http://www.w3.org/1999/xhtml\">\n\n              <table>\n\n                <thead>\n\n                  <tr>\n\n                    <td>Medication</td>\n\n                    <td>Last Change</td>\n\n                    <td>Last ChangeReason</td>\n\n                  </tr>\n\n                </thead>\n\n                <tbody>\n\n                  <tr>\n\n                    <td>Theophylline 200mg BD after meals</td>\n\n                    <td>continued</td>\n\n                  </tr>\n\n                  <tr>\n\n                    <td>Ventolin Inhaler</td>\n\n                    <td>stopped</td>\n\n                    <td>Getting side effect of tremor</td>\n\n                  </tr>\n\n                </tbody>\n\n              </table>\n\n            </div>"
                                },
                                "entry":[
                                    {
                                        "reference": "urn:uuid:435e678d-3f14-451c-9a4e-5c04aa96a657"
                                    }
                                ]
                            },
                            {
                                "title":"入院時現病歴",
                                "code":{
                                    "coding":[
                                        {
                                        "system":"http://jpfhir.jp/fhir/eClinicalSummary/CodeSystem/document-section",
                                        "code":"362",
                                        "display":"入院時現病歴"
                                        }
                                    ]
                                },
                                "text":{
                                    "status":"additional",
                                    "div":"<div xmlns=\"http://www.w3.org/1999/xhtml\">\n\n              <table>\n\n                <thead>\n\n                  <tr>\n\n                    <td>Medication</td>\n\n                    <td>Last Change</td>\n\n                    <td>Last ChangeReason</td>\n\n                  </tr>\n\n                </thead>\n\n                <tbody>\n\n                  <tr>\n\n                    <td>Theophylline 200mg BD after meals</td>\n\n                    <td>continued</td>\n\n                  </tr>\n\n                  <tr>\n\n                    <td>Ventolin Inhaler</td>\n\n                    <td>stopped</td>\n\n                    <td>Getting side effect of tremor</td>\n\n                  </tr>\n\n                </tbody>\n\n              </table>\n\n            </div>"
                                },
                                "entry":[
                                    {
                                        "reference": "urn:uuid:d9f9406f-a5c4-49ed-9783-da4f5eb7170f"
                                    }
                                ]
                            },
                            {
                                "title":"入院中経過",
                                "code":{
                                    "coding":[
                                        {
                                        "system":"http://jpfhir.jp/fhir/eClinicalSummary/CodeSystem/document-section",
                                        "code":"333",
                                        "display":"入院中経過"
                                        }
                                    ]
                                },
                                "text":{
                                    "status":"additional",
                                    "div":"<div xmlns=\"http://www.w3.org/1999/xhtml\">\n\n              <table>\n\n                <thead>\n\n                  <tr>\n\n                    <td>Medication</td>\n\n                    <td>Last Change</td>\n\n                    <td>Last ChangeReason</td>\n\n                  </tr>\n\n                </thead>\n\n                <tbody>\n\n                  <tr>\n\n                    <td>Theophylline 200mg BD after meals</td>\n\n                    <td>continued</td>\n\n                  </tr>\n\n                  <tr>\n\n                    <td>Ventolin Inhaler</td>\n\n                    <td>stopped</td>\n\n                    <td>Getting side effect of tremor</td>\n\n                  </tr>\n\n                </tbody>\n\n              </table>\n\n            </div>"
                                },
                                "entry":[
                                    {
                                        "reference": "urn:uuid:111b7f6b-7a1a-45d7-97b0-cb1f3994db56"
                                    }
                                ]
                            },
                            {
                                "title":"退院時詳細",
                                "code":{
                                    "coding":[
                                        {
                                        "system":"http://jpfhir.jp/fhir/eClinicalSummary/CodeSystem/document-section",
                                        "code":"324",
                                        "display":"退院時詳細"
                                        }
                                    ]
                                },
                                "text":{
                                    "status":"additional",
                                    "div":"<div xmlns=\"http://www.w3.org/1999/xhtml\">\n\n              <table>\n\n                <thead>\n\n                  <tr>\n\n                    <td>Medication</td>\n\n                    <td>Last Change</td>\n\n                    <td>Last ChangeReason</td>\n\n                  </tr>\n\n                </thead>\n\n                <tbody>\n\n                  <tr>\n\n                    <td>Theophylline 200mg BD after meals</td>\n\n                    <td>continued</td>\n\n                  </tr>\n\n                  <tr>\n\n                    <td>Ventolin Inhaler</td>\n\n                    <td>stopped</td>\n\n                    <td>Getting side effect of tremor</td>\n\n                  </tr>\n\n                </tbody>\n\n              </table>\n\n            </div>"
                                },
                                "entry":[
                                    {
                                        "reference": "urn:uuid:435e678d-3f14-451c-9a4e-5c04aa96a657"
                                    }
                                ]
                            },
                            {
                                "title":"退院時投薬指示",
                                "code":{
                                    "coding":[
                                        {
                                        "system":"http://jpfhir.jp/fhir/eClinicalSummary/CodeSystem/document-section",
                                        "code":"444",
                                        "display":"退院時投薬指示"
                                        }
                                    ]
                                },
                                "text":{
                                    "status":"additional",
                                    "div":"<div xmlns=\"http://www.w3.org/1999/xhtml\">\n\n              <table>\n\n                <thead>\n\n                  <tr>\n\n                    <td>Medication</td>\n\n                    <td>Last Change</td>\n\n                    <td>Last ChangeReason</td>\n\n                  </tr>\n\n                </thead>\n\n                <tbody>\n\n                  <tr>\n\n                    <td>Theophylline 200mg BD after meals</td>\n\n                    <td>continued</td>\n\n                  </tr>\n\n                  <tr>\n\n                    <td>Ventolin Inhaler</td>\n\n                    <td>stopped</td>\n\n                    <td>Getting side effect of tremor</td>\n\n                  </tr>\n\n                </tbody>\n\n              </table>\n\n            </div>"
                                },
                                "entry":[
                                    {
                                        "reference": "urn:uuid:158b8643-f1a8-45ff-afbf-27064430e003"
                                    }
                                ]
                            },
                            {
                                "title":"退院時方針指示",
                                "code":{
                                    "coding":[
                                        {
                                        "system":"http://jpfhir.jp/fhir/eClinicalSummary/CodeSystem/document-section",
                                        "code":"424",
                                        "display":"退院時方針指示"
                                        }
                                    ]
                                },
                                "text":{
                                    "status":"additional",
                                    "div":"<div xmlns=\"http://www.w3.org/1999/xhtml\">\n\n              <table>\n\n                <thead>\n\n                  <tr>\n\n                    <td>Medication</td>\n\n                    <td>Last Change</td>\n\n                    <td>Last ChangeReason</td>\n\n                  </tr>\n\n                </thead>\n\n                <tbody>\n\n                  <tr>\n\n                    <td>Theophylline 200mg BD after meals</td>\n\n                    <td>continued</td>\n\n                  </tr>\n\n                  <tr>\n\n                    <td>Ventolin Inhaler</td>\n\n                    <td>stopped</td>\n\n                    <td>Getting side effect of tremor</td>\n\n                  </tr>\n\n                </tbody>\n\n              </table>\n\n            </div>"
                                },
                                "entry":[
                                    {
                                        "reference": "urn:uuid:5c0189ed-82cd-4f5f-965d-94775e55733a"
                                    }
                                ]
                            }
                        ]
                    }
                ]
            }
        },
        {
            "fullUrl": "urn:uuid:058fa764-c95f-42ec-bd42-fce1882de842",
            "resource":{
                "resourceType": "Patient",
                "address": [
                    {
                        "postalCode": "1600023",
                        "text": "東京都新宿区西新宿6丁目"
                    }
                ],
                "birthDate": "1970-01-01",
                "gender": "male",
                "identifier": [
                    {
                        "value": "1001"
                    }
                ],
                "name": [
                    {
                        "extension": [
                        {
                            "url": "http://hl7.org/fhir/StructureDefinition/iso21090-EN-representation",
                            "valueCode": "IDE"
                        }
                        ],
                        "use": "official",
                        "text": "山田 太郎",
                        "family": "山田",
                        "given": [
                        "太郎"
                        ]
                    },
                    {
                        "extension": [
                        {
                            "url": "http://hl7.org/fhir/StructureDefinition/iso21090-EN-representation",
                            "valueCode": "SYL"
                        }
                        ],
                        "use": "official",
                        "text": "ヤマダ タロウ",
                        "family": "ヤマダ",
                        "given": [
                        "タロウ"
                        ]
                    }
                ],
                "telecom": [
                    {
                        "value": "0312345678"
                    }
                ]
            }
        }, 
        {
            "fullUrl":"urn:uuid:f14602df-cb5a-496d-a632-7bc013107330",
            "resource":{
                "resourceType": "Practitioner",
                "meta":{
                    "profile":["http://jpfhir.jp/fhir/eClinicalSummary/StructureDefinition/JP_Practitioner_eClinicalSummary_author"]
                },
                "text": {
                    "status": "generated",
                    "div": "<div xmlns=\"http://www.w3.org/1999/xhtml\"><ul><li>神奈川　花子</li><li>カナガワ　ハナコ</li><li>麻薬施用者免許番号：4-321</li></ul></div>"
                },
                "name": [
                    {
                    "extension": [
                        {
                            "url": "http://hl7.org/fhir/StructureDefinition/iso21090-EN-representation",
                            "valueCode": "IDE"
                        }
                    ],
                    "text": "神奈川花子",
                    "family": "神奈川",
                    "given": [
                    "花子"
                    ]
                },
                {
                    "extension": [
                        {
                            "url": "http://hl7.org/fhir/StructureDefinition/iso21090-EN-representation",
                            "valueCode": "SYL"
                        }
                    ],
                    "text": "カナガワハナコ",
                    "family": "カナガワ",
                    "given": [
                    "ハナコ"
                    ]
                }
                ]
            }
        },
        {
            "fullUrl": "urn:uuid:f3da8f9b-cc98-4a7f-88bb-62906eb74322",
            "resource": {
                "resourceType": "Organization",
                "meta": {
                    "profile": ["http://jpfhir.jp/fhir/eClinicalSummary/StructureDefinition/JP_Organization_eClinicalSummary_issuer"]
                },
                "text":{
                    "status":"generated",
                    "div":"<div xmlns='http://www.w3.org/1999/xhtml'>xxx</div>"
                },
                "extension":[
                    {
                        "url":"http://jpfhir.jp/fhir/core/Extension/StructureDefinition/JP_Organization_PrefectureNo",
                        "valueIdentifier":{
                            "system":"urn:oid:1.2.392.100495.20.3.21",
                            "value":"13"
                        }
                    },
                    {
                        "url":"http://jpfhir.jp/fhir/core/Extension/StructureDefinition/JP_Organization_InsuranceOrganizationCategory",
                        "valueIdentifier":{
                            "system":"urn:oid:1.2.392.100495.20.3.22",
                            "value":"1"
                        }            
                    },
                    {
                        "url":"http://jpfhir.jp/fhir/core/Extension/StructureDefinition/JP_Organization_InsuranceOrganizationNo",
                        "valueIdentifier":{
                            "system":"urn:oid:1.2.392.100495.20.3.23",
                            "value":"1234567"
                        }            
                    }
                ],
                "identifier": [
                    {
                        "system": "http://jpfhir.jp/fhir/Common/CodeSystem/insurance-medical-nstitution-no",
                        "value":"1311234567"
                    }
                ],
                "type": [
                    {
                        "coding": [
                            {
                                "system": "http://terminology.hl7.org/CodeSystem/organization-type",
                                "code": "prov",
                                "display": "厚生労働省第一病院"
                            }
                        ]
                    }
                ],
                "name": "厚生労働省第一病院",
                "telecom": [
                    {
                        "system": "phone",
                        "value": "0123-456-7890"
                    }
                ],
                "address": [
                    {
                        "text":"神奈川県横浜市港区１－２－３",
                        "postalCode": "123-4567",
                        "country": "JP"
                    }
                ]
            }
        },
        {
            "fullUrl": "urn:uuid:435e678d-3f14-451c-9a4e-5c04aa96a657",
            "resource": {
                "resourceType": "Encounter",
                "meta": {
                    "profile": ["http://jpfhir.jp/fhir/eClinicalSummary/StructureDefinition/JP_Encounter_eClinicalSummary"]   
                },
                "identifier":[
                    {
                        "system":"http://jpfhir.jp/fhir/Common/CodeSystem/resourceInstance-identifier",
                        "value":"1311234567-2020-00123456"
                    }
                ],        
                "status": "finished",
                "class": {
                    "system": "http://terminology.hl7.org/CodeSystem/v3-ActCode",
                    "code": "IMP",
                    "display":"入院"
                },
                "classHistory":[
                    {
                        "class":{
                            "system":"http://terminology.hl7.org/CodeSystem/v3-ActCode",
                            "code":"AMB",
                            "display":"外来"
                        },
                        "period":{
                            "start":"2020-08-21",
                            "end":"2020-08-21" 
                        }
                    }
                ],
                "period":{
                    "start":"2020-09-01",
                    "end":"2020-09-18" 
                },
                "length":{
                    "value":7,
                    "unit":"日",
                    "system":"http://unitsofmeasure.org",
                    "code":"d"
                },
                "reasonCode": [
                    {
                        "coding": [
                            {
                                "system": "urn:oid:1.2.392.200119.4.101.6",
                                "code": "B0EF",
                                "display": "持続腹痛"
                            }
                        ]
                    }
                ],
                "diagnosis":[
                    {
                        "condition":{
                            "reference":"urn:uuid:d9f9406f-a5c4-49ed-9783-da4f5eb7170f"
                        },
                        "use":{
                            "coding":[
                                {
                                    "system": "http://terminology.hl7.org/CodeSystem/diagnosisrole",
                                    "code": "DD",
                                    "display": "退院時診断"                        
                                }
                            ]
                        },
                        "rank":1
                    }
                ],
                "hospitalization":{
                    "origin":{
                        "reference":"urn:uuid:f3da8f9b-cc98-4a7f-88bb-62906eb74322"
                    },
                    "admitSource":{
                        "coding":[
                            {
                                "system":"http://jpfhir.jp/fhir/Common/CodeSystem/admit-Source",
                                "code":"1",
                                "display":"家庭からの入院"
                            }
                        ]
                    },
                    "dischargeDisposition":{
                        "coding":[
                            {
                                "system":"http://jpfhir.jp/fhir/Common/CodeSystem/discharge-disposition",
                                "code":"1",
                                "display":"傷病が治癒・軽快"
                            }
                        ]               
                    }
                }
            }
        },
        {
            "fullUrl":"urn:uuid:d9f9406f-a5c4-49ed-9783-da4f5eb7170f",
            "resource":{
                "resourceType" : "Condition",
                "meta":{
                    "profile":["http://jpfhir.jp/fhir/eClinicalSummary/StructureDefinition/JP_Condition_eClinicalSummary"]
                },
                "text" : {
                    "status" : "generated",
                    "div" : "<div xmlns='http://www.w3.org/1999/xhtml'>xxx</div>"
                },
                "identifier":[
                    {
                        "system":"http://jpfhir.jp/fhir/Common/CodeSystem/resourceInstance-identifier",
                        "value":"1311234567-2020-00123456"
                    }
                ],
                "clinicalStatus": {
                    "coding": [
                        {
                            "system": "http://hl7.org/fhir/ValueSet/condition-clinical",
                            "code": "active"
                        }
                    ]
                },
                "verificationStatus" : {
                    "coding": [
                        {
                            "system": "http://hl7.org/fhir/ValueSet/condition-ver-status",
                            "code": "provisional"
                        }
                    ]
                },
                "code": {
                    "coding": [ 
                        {
                    "system": "urn:oid:1.2.392.200119.4.101.6",
                    "code": "B0EF",
                    "display": "持続腹痛"
                    }
                    ]
                },
                "bodySite": [
                    {
                        "coding": [
                            {
                                "system": "urn:oid:1.2.392.200119.4.201.5",
                                "code": "1244",
                                "display": "腹部"
                            }
                        ]
                    }
                ],
                "subject" : {
                    "reference" : "urn:uuid:058fa764-c95f-42ec-bd42-fce1882de842",
                    "display" : "山田太郎"
                },
                "encounter":{
                        "reference":"urn:uuid:435e678d-3f14-451c-9a4e-5c04aa96a657"
                },
                "onsetAge": {
                    "value": 10,
                    "unit": "歳",
                    "system": "http://unitsofmeasure.org",
                    "code": "a"
                },
                "recordedDate": "2020-09-01",
                "evidence": [
                    {
                        "code": [
                            {
                            "coding":[
                                {
                                    "system":"urn:oid:1.2.392.200119.4.101.6",
                                    "code": "B0EF",
                                    "display": "持続腹痛"
                                }
                            ]
                            }
                        ],
                        "detail":[
                            {
                                "reference": "urn:uuid:435e678d-3f14-451c-9a4e-5c04aa96a657"
                            }
                        ]
                    }
                ]
            }
        },
        {
            "fullUrl": "urn:uuid:1b31a34f-50c6-4197-b85d-0e4e6569c27",
            "resource":{
                "resourceType": "AllergyIntolerance",
                "meta": {
                    "profile": ["http://jpfhir.jp/fhir/eClinicalSummary/StructureDefinition/JP_AllergyIntolerance_eClinicalSummary"]
                },
                "text":{
                    "status":"generated",
                    "div":"<div xmlns='http://www.w3.org/1999/xhtml'>xxx</div>"
                },
                "identifier":[
                    {
                    "system":"http://jpfhir.jp/fhir/Common/CodeSystem/resourceInstance-identifier",
                    "value":"1311234567-2020-00123456"
                    }
                ],
                "clinicalStatus": {
                    "coding": [
                        {
                            "code": "active",
                            "system": "http://terminology.hl7.org/CodeSystem/allergyintolerance-clinical"
                        }
                    ]
                },
                "verificationStatus":{
                    "coding": [
                        {
                            "code": "confirmed",
                            "system": "http://terminology.hl7.org/CodeSystem/allergyintolerance-verification"
                        }
                    ]        
                },
                "type":"allergy",
                "category": [
                    "food"
                ],
                "criticality":"high",
                "code": {
                    "coding": [
                        {
                            "system":"http://jpfhir.jp/fhir/AllergyIntolerance/CodeSystem/allergy-substance",
                            "code": "J7F7111190",
                            "display": "さば類"
                        }
                    ],
                    "text":"ゴマサバ"
                },
                "patient": {
                    "reference": "urn:uuid:058fa764-c95f-42ec-bd42-fce1882de842"
                },
                "encounter":{
                    "reference":"urn:uuid:435e678d-3f14-451c-9a4e-5c04aa96a657"
                }
            }
        },
        {
            "fullUrl":"urn:uuid:158b8643-f1a8-45ff-afbf-27064430e003",
            "resource":{
                "resourceType":"MedicationRequest",
                "meta":{
                    "profile":["http://jpfhir.jp/fhir/ePrescription/StructureDefinition/JP_MedicationRequest_ePrescription"]
                },
                "text":{
                    "status":"generated",
                    "div":"<divxmlns='http://www.w3.org/1999/xhtml'><ul><li>RP:9</li>カルボシステイン錠２５０ｍｇ</ul><li>内服・経口・１日２回朝夕食後 １回２錠 7日分</li></div>"
                },
                "identifier":[
                    {
                        "system":"urn:oid:1.2.392.100495.20.3.81",
                        "value":"1"
                    },
                    {
                        "system":"urn:oid:1.2.392.100495.20.3.82",
                        "value":"1"
                    }
                ],
                "status":"completed",
                "intent":"order",
                "medicationCodeableConcept":{
                    "coding":[
                        {
                            "system":"urn:oid:1.2.392.200119.4.403.1",
                            "code":"103831601",
                            "display":"カルボシステイン錠２５０ｍｇ" 
                        }
                    ]
                },
                "subject":{
                    "reference":"urn:uuid:058fa764-c95f-42ec-bd42-fce1882de842"
                },
                "authoredOn":"2020-09-15T12:28:17+09:00",
                "dosageInstruction": [
                    {
                    "extension": [
                        {
                            "url":
                            "http://jpfhir.jp/fhir/core/StructureDefinition/JP_MedicationRequest_DosageInstruction_PeriodOfUse",
                            "valuePeriod": {
                                "start": "2020-09-21"
                            }
                        },
                        {
                            "url":"http://jpfhir.jp/fhir/core/StructureDefinition/JP_MedicationRequest_DosageInstruction_UsageDuration",
                            "valueDuration": {
                                "value": 7,
                                "unit": "日",
                                "system": "http://unitsofmeasure.org",
                                "code": "d"
                            }
                        }
                    ],
                    "text": "内服・経口・１日２回朝夕食後 １回２錠 7日分",
                    "timing": {
                        "event":["2020-09-15"],
                        "repeat":{
                            "boundsDuration":{
                                "value":7,
                                "unit":"日",
                                "system":"http://unitsofmeasure.org",
                                "code":"d"
                            }
                        },
                        "code": {
                            "coding": [
                                {
                                "system": "urn:oid:1.2.392.200250.2.2.20",
                                "code": "1012040400000000",
                                "display": "内服・経口・１日２回朝夕食後"
                                }
                            ]
                        }
                    },
                    "route": {
                        "coding": [
                            {
                                "system": "http://jpfhir.jp/fhir/ePrescription/CodeSystem/route-codes",
                                "code": "PO",
                                "display": "経口"
                            }
                        ],
                        "text":"経口"
                    },
                    "method":{
                        "coding":[
                            {
                                "system":"urn:oid:1.2.392.200250.2.2.20.30",
                                "code":"1",
                                "display":"内服"
                            }
                        ],
                        "text":"内服"
                    },
                    "doseAndRate": [
                        {
                            "type":{
                                "coding":[
                                    {
                                        "system":"urn:oid:1.2.392.100495.20.2.22",
                                        "code":"1",
                                        "display":"製剤量"
                                    }
                                ]
                            },
                            "doseQuantity": {
                                "value": 2,
                                "unit": "錠",
                                "system": "urn:oid:1.2.392.100495.20.2.101",
                                "code": "TAB"
                            },
                            "rateRatio": {
                                "numerator": {
                                "value": 4,
                                "unit": "錠",
                                "system": "urn:oid:1.2.392.100495.20.2.101",
                                "code": "TAB"
                                },
                            "denominator": {
                                "value": 1,
                                "unit": "日",
                                "system": "http://unitsofmeasure.org",
                                "code": "d"
                                }
                            }
                        }
                    ]            
                }],
                "dispenseRequest":{
                    "extension":[
                        {
                            "url":"http://jpfhir.jp/fhir/core/Extension/StructureDefinition/JP_MedicationRequest_DispenseRequest_InstructionForDispense",
                            "valueCodeableConcept":{
                                "coding":[
                                    {
                                    "system":"urn:oid:1.2.392.200250.2.2.30.10",
                                    "code":"C",
                                    "display":"粉砕指示"
                                    }
                                ],
                                "text":"嚥下障害のため、上記粉砕指示"
                            }
                        }
                    ],
                    "quantity":{
                        "value":28,
                        "unit":"錠",
                        "system":"urn:oid:1.2.392.200119.4.403.1",
                        "code":"TAB"
                    },
                    "expectedSupplyDuration": {
                        "value": 7,
                        "unit": "日",
                        "system": "http://unitsofmeasure.org",
                        "code": "d"
                    }                
                }
            }
        },
        {
            "fullUrl":"urn:uuid:5c0189ed-82cd-4f5f-965d-94775e55733a",
            "resource": {
                "resourceType": "CarePlan",
                "meta": {
                    "profile": ["http://jpfhir.jp/fhir/eClinicalSummary/StructureDefinition/JP_CarePlan_eClinicalSummary"]
                },
                "text": {
                    "status": "generated",
                    "div": "<div xmlns=\"http://www.w3.org/1999/xhtml\">高脂血症のケアプラン 臨床管理計画書<br/>アクティビティ： <ul><li>高脂血症臨床管理計画</li><li>高脂血症臨床管理計画</li></ul><br/>ケアプランは高脂血症を治療するためのものです。</div>"
                },
                "identifier": [
                    {
                      "system":"http://jpfhir.jp/fhir/Common/CodeSystem/resourceInstance-identifier",
                      "value": "1311234567-2020-00123456"
                    }
                ],    
                "status": "active",
                "intent": "order",
                "category": [
                    {
                        "coding": [
                            {
                                "system": "http://jpfhir.jp/fhir/CarePlan/CodeSystem/category",
                                "code": "736285004",
                                "display": "discharge-plan"
                            }
                        ],
                        "text": "高脂血症臨床管理計画書"
                    }
                ],
                "title":"退院時の方針",
                "description":"2020/9/30に循環器内科Dr笹田外来受診、その後○×クリニックへ逆紹介の予定",
                "subject": {
                    "reference": "urn:uuid:058fa764-c95f-42ec-bd42-fce1882de842"
                },
                "encounter": {
                    "reference": "urn:uuid:435e678d-3f14-451c-9a4e-5c04aa96a657"
                },
                "period": {
                    "start": "2020-09-18T15:25:16+09:00"
                },
                "created":"2020-09-15T15:25:16+09:00",
                "author":{
                    "reference":"urn:uuid:f14602df-cb5a-496d-a632-7bc013107330"
                }
            }
        },
        {
            "fullUrl": "urn:uuid:111b7f6b-7a1a-45d7-97b0-cb1f3994db56",
            "resource":{
                "resourceType": "DocumentReference",
                "meta": {
                    "profile": ["http://jpfhir.jp/fhir/eClinicalSummary/StructureDefinition/JPDocumentReference_eClinicalSummary"]
                },
                "status":"current",
                "description":"退院時サマリー",
                "content":[
                    {
                        "attachment":{
                            "creation":"2021-09-18T10:28:17.239+09:00",
                            "contentType":"text/html",
                            "data":"",
                            "url":"この文書にアクセス可能なURL"
                        }
                    }
                ]
            }
        }
    ],
    "signature":{
        "type":[
            {
            "system":"urn:iso-astm:E1762-95:2013",
            "code":"1.2.840.10065.1.12.1.1"
            }
        ],
        "when":"2021-08-21T12:28:18.345+09:00",
        "who":{
            "reference":"urn:uuid:f14602df-cb5a-496d-a632-7bc013107330"
        },
        "data":"6aOv5bO2576O56mC5a2Q"
     }
}